---
name: sap_to_analysis_code_skeleton
description: "Generates boilerplate analysis code (SAS or R) based on a structured Statistical Analysis Plan (SAP). It creates scripts for ADaM dataset creation, TFL shells, and implements specified statistical models, significantly accelerating the programming process."
version: "1.0.0"
author: "Clinical Programming Expert"
tags: [code generation, sas, r, adam, tfl, sap, automation, clinical programming]
---

# SAP to Analysis Code Skeleton Generation Skill

## Overview
This skill automates the generation of boilerplate analysis code based on a structured Statistical Analysis Plan (SAP). It creates foundational code frameworks for ADaM dataset creation, TFL (Tables, Figures, Listings) shells, and implements specified statistical models, significantly accelerating the clinical programming process while maintaining compliance with CDISC standards and regulatory requirements.

## Usage
Use this skill when you need to:
- Generate ADaM dataset programming code from SAP specifications
- Create TFL shell code frameworks for tables, figures, and listings
- Implement statistical model code based on SAP methods
- Accelerate clinical programming workflow and reduce manual coding
- Ensure code consistency and adherence to programming standards
- Support both SAS and R programming environments

## Core Capabilities

### Requirements Assessment and Planning
- **Needs Analysis**: Evaluates user requirements completeness and clarity
- **Feasibility Assessment**: Assesses technical feasibility of code generation
- **方案适配度评估**: Evaluates how well different approaches fit user needs
- **Requirement Gap Identification**: Identifies gaps between user requirements and technical capabilities
- **Alternative Solutions**: Proposes alternative approaches when requirements cannot be fully met
- **R-First Approach**: Prioritizes R programming language for code generation

### Debug and Troubleshooting
- **Requirement Alignment Check**: Continuously verifies code generation against original requirements
- **Technical Framework Evaluation**: Assesses if technical framework can meet user needs
- **Early Warning System**: Detects when requirements exceed technical capabilities
- **User Communication**: Proactively informs users about potential limitations
- **需求调整建议**: Provides recommendations for requirement adjustments when technical constraints exist
- **Code Validation**: Validates generated code for syntax and logical correctness
- **Error Handling**: Implements robust error handling in generated code
- **Traceability**: Maintains traceability between requirements and generated code

### SAP Analysis and Extraction
- **Structured SAP Parsing**: Calls `doc_understand_structured` skill to deeply analyze SAP and extract:
  - ADaM dataset specifications (ADSL, ADLB, ADAE, etc.)
  - TFL layout descriptions and requirements
  - Variable derivation logic and calculation rules
  - Statistical analysis methods and models
  - Analysis population definitions
  - Data filtering and subset criteria

### ADaM Code Framework Generation
- **Dataset Structure Creation**: Generates code files for each planned ADaM dataset
- **Variable Mapping**: Creates mapping specifications from SDTM to ADaM
- **Derivation Logic**: Implements variable derivation rules and calculations
- **Population Flags**: Generates analysis population flag variables
- **Parameter Variables**: Creates PARAM, PARAMCD, and related variables for BDS datasets
- **Traceability Comments**: Adds comments linking variables to source specifications

### TFL Code Framework Generation
- **Individual Program Files**: Creates separate program files for each Table, Figure, and Listing
- **Data Processing Framework**: Generates data preparation and processing code
- **Statistical Procedure Calls**: Implements appropriate statistical procedures (PROC MEANS, PROC FREQ, etc.)
- **Layout Templates**: Creates code frameworks for standard TFL layouts
- **Grouping and Subsetting**: Implements treatment group comparisons and population subsetting
- **Output Formatting**: Sets up standard reporting formats and styles

### Statistical Model Implementation
- **Model Code Generation**: Generates code for specified statistical models
- **ANCOVA Implementation**: Creates analysis of covariance models with covariates
- **Logistic Regression**: Implements binary outcome analysis models
- **Survival Analysis**: Generates Cox proportional hazards models
- **Mixed Models**: Creates repeated measures and longitudinal analysis models
- **Model Diagnostics**: Includes diagnostic and validation code

## Input Format

### Required Parameters
- `sap_path`: Path to the Statistical Analysis Plan document (PDF, DOCX, or MD)
- `output_language`: Programming language for generated code ("SAS" or "R")
- `output_dir`: Directory path where generated code files will be saved
- **sap_document** (required): Statistical Analysis Plan document
  - File path or content of the SAP
  
- **technology_stack** (required): Programming technology stack
  - Must be specified by user
  - Examples: 
    - {"language": "SAS", "version": "9.4"}
    - {"language": "R", "version": "4.3"}
    - {"language": "Python", "version": "3.11"}
  - If not provided, must call technology_trends_intelligence first


### Optional Parameters
- `adsl_path`: Path to existing ADSL dataset (if available for reference)
- `sdtm_dir`: Directory containing SDTM datasets for mapping reference
- `programming_standards`: Path to company programming standards document
- `tfl_templates`: Directory containing TFL template files
- `code_style`: Programming style preferences ("standard", "enhanced", "minimal")
- **code_generation_preferences** (optional): Code generation preferences
  - Examples: "use_templates", "ai_assisted", "manual"


## Output Format

### Generated Code Structure
```text
output_dir/
├── adam/
│ ├── create_adsl.sas (or .R)
│ ├── create_adlb.sas
│ ├── create_adae.sas
│ └── create_[dataset].sas
├── tfl/
│ ├── tfl_001_demog_table.sas
│ ├── tfl_002_efficacy_table.sas
│ ├── tfl_003_safety_figure.sas
│ └── tfl_[number]_[description].sas
├── macros/
│ ├── utility_macros.sas
│ └── format_macros.sas
└── lib/
├── setup_lib.sas
└── global_settings.sas
```

### ADaM Code Framework Example (SAS)

```sas
  /* -----------------------------------------------------------------------
  Program: create_adlb.sas
  Purpose: Create ADaM Basic Data Structure for Laboratory Data (ADLB)
  Source: SDTM LB domain
  SAP Reference: Section 4.2.1, Laboratory Analysis
  Generated: 2026-04-01 by AI Agent
  ----------------------------------------------------------------------- */

  %include "&path/macros/utility_macros.sas";

  /* ADLB Dataset Creation */
  data adlb_raw;
  set sdtm.lb(rename=(lbtestcd=paramcd lbtest=param));
  /* Key Variables */
  keep studyid usubjid param paramcd aval base;

  /* Analysis Value */
  aval = lbstresn;

  /* Baseline Value */
  if lbseq = 1 then base = lbstresn;

  /* Analysis Flag */
  if not missing(aval) then anl01fl = 'Y';
  else anl01fl = '';

  /* Final ADLB Dataset */
  data adlb;
  set adlb_raw;
  /* Standard ADaM Variables */
  keep studyid usubjid subjid trt01p trt01pn param paramcd aval base 
      anl01fl;

  /* Label Variables */
  label studyid = 'Study Identifier'
        usubjid = 'Unique Subject Identifier'
        paramcd = 'Parameter Code'
        param = 'Parameter Description'
        aval = 'Analysis Value'
        base = 'Baseline Value'
        anl01fl = 'Analysis Flag 01';
        run;

  /* QC Checks */
  %qc_check_dataset(adlb);
```

### TFL Code Framework Example (SAS)

```sas
  /* -----------------------------------------------------------------------
  Program: tfl_002_efficacy_table.sas
  Purpose: Generate Efficacy Table - Primary Endpoint Analysis
  SAP Reference: Section 5.1.1, Primary Efficacy Analysis
  Generated: 2026-04-01 by AI Agent
  ----------------------------------------------------------------------- */

  %include "&path/macros/tfl_macros.sas";

  /* Data Preparation for Efficacy Table */
  data tfl_data;
  set adam.adsl(where=(anl01fl='Y'));

  keep usubjid trt01p trt01pn primary_endpoint;

  /* TODO: Implement primary endpoint calculation logic */
  /* Reference SAP Section 5.1.1 for specific calculation method */
  primary_endpoint = .; /* Placeholder - needs implementation */
  run;

  /* Statistical Summary */
  proc means data=tfl_data n mean std median min max maxdec=2;
  class trt01p;
  var primary_endpoint;
  output out=summary_stats;
  run;

  /* Table Generation */
  title1 "Table 14.2.1: Primary Efficacy Endpoint by Treatment Group";
  proc report data=summary_stats nowd;
  column trt01p _freq_ _mean_ _std_ _median_ _min_ _max_;
  define trt01p / display "Treatment Group";
  define _freq_ / display "N";
  define _mean_ / display "Mean";
  define _std_ / display "Std Dev";
  define _median_ / display "Median";
  define _min_ / display "Minimum";
  define _max_ / display "Maximum";
  run;
```

### Code Skeleton Report Structure

```json
{
"code_generation_metadata": {
"generation_id": "CODE-SKEL-2026-04-01-001",
"generation_timestamp": "2026-04-01T10:00:00Z",
"technology_stack": {
"language": "Python",
"version": "3.11",
"key_libraries": {
"pandas": "2.1.4",
"numpy": "1.26.3",
"statsmodels": "0.14.0"
}
},
"technology_stack_specified_by": "user"
},
"technology_recommendations": {
"recommended_versions": {…},
"compatibility_notes": […],
"best_practices": […]
},
"code_skeleton": {
"analysis_programs": […],
"macro_functions": […],
"data_steps": […]
},
"user_interaction_required": true,
"interaction_prompt": {
"title": "Please confirm your technology stack",
"context": "Based on your requirements, I recommend the following technology stack…",
"available_options": […]
}
}

```

## Implementation Steps

### 0. Pre-Generation: Technology Stack Confirmation (NEW)
Confirm technology stack with user before proceeding.

**Constraints:**
- You MUST confirm technology_stack is specified by user
- If technology_stack is not provided:
  - You MUST call `technology_trends_intelligence` with:
    - technology_domain: "statistical_libraries"
    - language_or_tool: "Python" (or user preference)
    - application_scenario: "clinical_data_analysis"
  - You MUST present available technology options to user
  - You MUST request user to specify technology stack
  - You MUST NOT auto-select any technology
- You MUST document technology stack confirmation
- You MUST ensure transparency about technology used

### 1. Technology Trends Retrieval (NEW)
Retrieve latest technology trends and recommendations.

**Constraints:**
- You MUST call `technology_trends_intelligence` with:
  - technology_domain: "statistical_libraries"
  - language_or_tool: [user-specified language]
  - version: [user-specified version]
  - application_scenario: "clinical_data_analysis"
- You MUST retrieve latest library versions
- You MUST assess compatibility
- You MUST identify best practices
- You MUST provide technology recommendations

### 2. SAP Parsing and Information Extraction
- Call `doc_understand_structured` skill to parse SAP document
- Extract ADaM dataset specifications including:
  - Dataset names and purposes
  - Required variables and attributes
  - Source datasets and mapping logic
  - Derivation rules for calculated variables
- Extract TFL specifications including:
  - Table/Figure/Listing titles and purposes
  - Required analyses and summaries
  - Display formats and layouts
- Extract statistical analysis methods including:
  - Model types and specifications
  - Analysis populations
  - Multiplicity adjustments
  - Missing data handling strategies

### 2. ADaM Code Framework Generation
- For each ADaM dataset specified in SAP:
  - Create separate code file with standard header
  - Include necessary library references and macro calls
  - Generate data step framework with source dataset merging
  - Add variable assignment statements with source mappings
  - Include comments for complex derivation logic
  - Add label statements for all variables
  - Generate basic quality check procedures

### 3. TFL Code Shell Generation
- For each TFL specified in SAP:
  - Create separate program file
  - Generate data processing framework
  - Implement statistical summary procedures based on TFL type
  - Add output formatting structure
  - Include comments for specific display requirements
  - Generate basic quality checks

### 4. Statistical Model Code Implementation
- For each statistical model specified in SAP:
  - Identify appropriate procedure/function
  - Generate model specification code
  - Set up required parameters and options
  - Implement output capture code
  - Add diagnostic and validation code
  - Include results formatting framework

### 5. Global Files and Utilities
- Generate global.sas/global.R with:
  - Library assignments
  - Macro definitions
  - Global options and settings
  - Common utility functions
- Create utility macros for common operations

## Constraints and Best Practices

### MUST Requirements
- You MUST confirm technology_stack with user before proceeding
- You MUST NOT auto-select any technology stack
- You MUST call technology_trends_intelligence for latest technology trends
- You MUST provide complete transparency about technology used
- You MUST ensure code is compatible with specified technology stack
- You MUST document all technology considerations
- You MUST call `doc_understand_structured` skill first to parse SAP
- You MUST generate code that follows CDISC standards for ADaM datasets
- You MUST include file headers with source references to SAP
- You MUST preserve traceability between SAP requirements and generated code
- You MUST generate code with proper structure and organization
- You MUST include comments indicating where manual implementation is required

### SHOULD Recommendations
- You SHOULD follow programming best practices and coding standards
- You SHOULD generate modular, reusable code structures
- You SHOULD include comprehensive comments for complex logic
- You SHOULD implement basic quality checks in generated code
- You SHOULD follow consistent naming conventions
- You SHOULD generate code that is easy to maintain and modify

### MAY Options
- You MAY suggest alternative programming approaches for complex requirements
- You MAY provide multiple implementation options when appropriate
- You MAY include performance optimization suggestions
- You MAY generate additional utility functions for common tasks

## Error Handling

### Common Issues and Solutions

**Issue**: SAP contains ambiguous or incomplete specifications
- **Solution**: Generate code with TODO comments and clear indicators of where manual implementation is required, flag for programmer review

**Issue**: Complex derivation logic cannot be fully automated
- **Solution**: Generate framework code with detailed comments explaining the required logic, provide examples or pseudo-code

**Issue**: Statistical model specifications are unclear
- **Solution**: Generate basic model framework with comments indicating required parameters, suggest consultation with statistician

**Issue**: TFL layout requirements are complex
- **Solution**: Generate basic structure with comments for specific formatting requirements, provide examples of similar TFLs

## Integration Examples

### Calling from SOP

```markdown

2. Analysis Code Framework Generation
Generate boilerplate code based on SAP specifications.

Constraints:

You MUST call sap_to_analysis_code_skeleton with sap_path and output_language
You MUST generate code for all ADaM datasets specified in SAP
You SHOULD create TFL frameworks for all planned tables and figures
You MUST include comprehensive comments and documentation
You MAY suggest improvements to code structure or organization
You MUST ensure generated code follows CDISC standards
You SHOULD include QC checks and validation code
```

### MCP Tool Integration
This skill can be exposed as an MCP tool with the following interface:
- Tool name: `generate_analysis_code_framework`
- Parameters: sap_path, output_language, output_dir, programming_standards
- Returns: Generated code files with comprehensive documentation

## Quality Assurance

### Pre-Execution Checks
- Verify SAP file is accessible and readable
- Confirm output directory exists and is writable
- Validate programming language selection (SAS or R)
- Check that required SDTM datasets are available

### Post-Execution Validation
- Review generated code for completeness and accuracy
- Verify all SAP specifications are addressed
- Confirm code follows programming standards
- Validate that all files are properly structured
- Ensure comments and documentation are comprehensive

### Documentation Requirements
- Maintain clear file naming conventions
- Include standard headers in all generated files
- Document source references to SAP sections
- Provide implementation guidance for complex logic
- Generate summary report of created files

## Regulatory Compliance

### CDISC Standards
- Follow ADaM Implementation Guide (ADaMIG) specifications
- Ensure variable naming follows CDISC conventions
- Implement standard ADaM dataset structures
- Maintain traceability from SDTM to ADaM

### GCP Considerations
- Ensure code supports data integrity and audit requirements
- Include validation and QC procedures
- Support reproducibility of analysis results
- Maintain clear documentation of all transformations

### Best Practices
- Follow SAS Programming Standards for Clinical Trials
- Implement efficient data processing methods
- Include comprehensive error handling
- Support code review and validation processes

...
